Folder: MSE2001python/module_examples/HW/HW4/xrd_data

File: tioga1_120-150.csv
2.00,256,190,245,245,244
2.12,211,186,208,254,233
2.24,177,151,196,197,179
2.36,162,156,172,181,160
2.48,164,130,192,153,143
2.60,171,138,139,133,136
2.72,140,120,150,130,117
2.84,138,93,116,111,106
2.96,131,113,126,100,93
3.08,127,120,113,87,81
3.20,135,121,107,80,92
3.32,119,109,108,102,87
3.44,127,104,117,71,70
3.56,114,117,81,70,63
3.68,135,95,98,66,65
3.80,107,82,103,60,71
3.92,90,88,77,58,64
4.04,100,73,65,64,50
4.16,103,77,75,50,67
4.28,83,74,57,43,51
4.40,66,71,68,54,40
4.52,75,63,64,49,50
4.64,87,63,66,40,33
4.76,82,54,56,44,41
4.88,73,64,64,39,24
5.00,79,53,50,36,30
5.12,67,66,53,32,34
5.24,69,56,40,38,31
5.36,70,54,39,40,24
5.48,87,75,45,27,26
5.60,77,45,49,40,26
5.72,48,65,34,30,31
5.84,73,60,48,24,23
5.96,81,62,48,27,27
6.08,73,72,43,29,23
6.20,89,76,54,31,23
6.32,78,89,57,14,18
6.44,83,94,56,23,26
6.56,76,89,44,25,20
6.68,89,60,52,27,26
6.80,89,77,52,26,38
6.92,111,96,54,32,21
7.04,99,113,49,19,23
7.16,103,121,63,32,20
7.28,102,158,66,27,18
7.40,101,166,79,34,22
7.52,138,140,83,35,20
7.64,139,153,78,31,34
7.76,161,154,93,37,25
7.88,155,114,88,54,48
8.00,176,148,82,61,37
8.12,191,117,102,70,66
8.24,200,143,115,79,62
8.36,208,128,116,112,71
8.48,231,124,122,121,86
8.60,229,129,123,185,150
8.72,271,114,141,193,208
8.84,205,119,116,193,242
8.96,175,98,78,118,186
9.08,144,80,44,80,83
9.20,122,50,48,61,67
9.32,101,73,41,40,36
9.44,84,62,45,29,26
9.56,89,60,35,27,22
9.68,84,52,34,34,10
9.80,65,65,26,23,24
9.92,76,55,30,18,19
10.04,59,38,38,32,19
10.16,71,55,24,19,14
10.28,73,51,31,19,16
10.40,79,44,44,31,19
10.52,78,47,47,30,24
10.64,58,46,36,21,16
10.76,77,41,27,15,16
10.88,73,41,32,27,12
11.00,73,47,26,29,13
11.12,57,52,34,28,12
11.24,71,63,52,27,16
11.36,83,53,36,38,13
11.48,77,53,31,37,5
11.60,80,59,36,29,6
11.72,73,68,27,27,20
11.84,80,54,37,36,11
11.96,90,55,42,27,11
12.08,67,53,34,37,12
12.20,69,54,36,33,8
12.32,56,63,20,29,17
12.44,64,66,31,26,9
12.56,46,50,27,30,10
12.68,40,53,25,25,16
12.80,29,42,12,23,11
12.92,25,27,24,17,5
13.04,29,24,21,13,8
13.16,28,27,15,20,19
13.28,23,23,14,14,5
13.40,17,31,13,14,11
13.52,18,17,18,12,11
13.64,11,10,14,21,15
13.76,15,19,14,15,10
13.88,14,23,17,15,16
14.00,20,15,12,18,11
14.12,11,15,12,14,8
14.24,17,23,18,7,7
14.36,15,23,13,10,12
14.48,20,24,14,10,14
14.60,13,17,16,16,12
14.72,15,8,14,15,22
14.84,14,13,12,13,12
14.96,15,10,12,12,14
15.08,13,23,15,11,16
15.20,10,15,13,13,11
15.32,7,14,15,12,11
15.44,15,17,15,12,11
15.56,14,7,15,22,9
15.68,12,14,15,10,14
15.80,18,7,23,7,13
15.92,20,10,23,17,12
16.04,13,12,14,13,12
16.16,16,14,11,16,12
16.28,9,9,13,18,11
16.40,19,17,18,16,21
16.52,9,10,22,21,19
16.64,18,14,28,21,12
16.76,17,13,16,19,25
16.88,4,11,22,16,18
17.00,10,13,20,18,22
17.12,16,19,22,16,19
17.24,13,22,18,17,20
17.36,15,11,22,29,21
17.48,22,16,21,17,17
17.60,29,9,18,27,17
17.72,23,24,29,21,17
17.84,24,19,21,16,15
17.96,24,27,17,24,25
18.08,29,21,23,16,21
18.20,17,21,23,16,23
18.32,18,18,27,23,26
18.44,18,19,24,17,32
18.56,18,28,30,16,23
18.68,12,23,24,16,24
18.80,16,20,24,25,22
18.92,24,17,25,22,15
19.04,17,23,26,27,15
19.16,22,14,23,33,28
19.28,21,20,14,30,30
19.40,18,25,20,20,18
19.52,12,18,26,29,27
19.64,20,18,24,30,27
19.76,27,22,27,21,19
19.88,17,22,21,32,30
20.00,30,26,29,32,20
20.12,20,15,26,35,34
20.24,25,35,24,31,28
20.36,22,23,30,24,29
20.48,29,21,31,28,22
20.60,15,30,38,22,35
20.72,20,32,25,29,30
20.84,24,32,31,28,37
20.96,25,32,35,32,28
21.08,20,31,43,22,18
21.20,28,27,55,33,28
21.32,22,26,30,27,36
21.44,26,35,30,31,35
21.56,31,30,28,32,32
21.68,29,30,45,31,34
21.80,31,35,41,38,25
21.92,30,32,44,31,25
22.04,31,30,38,23,29
22.16,36,32,36,22,36
22.28,31,31,30,24,32
22.40,33,30,34,31,38
22.52,33,28,40,35,25
22.64,33,34,35,36,27
22.76,31,37,34,33,39
22.88,33,26,39,25,34
23.00,39,41,30,38,41
23.12,33,43,44,29,32
23.24,36,37,50,36,28
23.36,34,42,45,35,36
23.48,41,45,46,34,41
23.60,51,54,37,29,35
23.72,41,57,37,39,37
23.84,44,43,38,38,26
23.96,51,63,28,48,46
24.08,67,50,46,45,41
24.20,59,48,53,53,43
24.32,70,78,50,37,36
24.44,71,77,45,36,40
24.56,70,55,59,51,27
24.68,64,69,43,43,41
24.80,76,87,46,67,35
24.92,99,99,46,39,42
25.04,75,93,68,47,45
25.16,84,90,48,52,40
25.28,90,99,42,58,37
25.40,102,80,56,37,46
25.52,102,76,46,46,45
25.64,121,112,40,57,40
25.76,113,126,48,44,54
25.88,111,127,41,48,36
26.00,127,158,57,68,40
26.12,152,139,67,52,46
26.24,141,124,53,61,51
26.36,173,117,61,50,41
26.48,155,122,60,84,60
26.60,141,90,88,86,80
26.72,149,95,61,81,97
26.84,105,83,71,70,88
26.96,90,70,47,52,82
27.08,62,55,45,49,56
27.20,53,50,32,38,41
27.32,56,39,41,39,29
27.44,58,50,51,35,36
27.56,47,58,33,32,42
27.68,56,42,40,45,44
27.80,49,45,26,30,31
27.92,43,52,37,31,44
28.04,51,59,52,31,38
28.16,34,39,48,29,30
28.28,37,34,23,26,35
28.40,32,33,23,34,28
28.52,46,41,34,32,28
28.64,29,19,38,34,38
28.76,28,36,23,30,29
28.88,28,46,28,35,34
29.00,34,31,31,37,46
29.12,27,32,39,28,27
29.24,28,40,35,29,29
29.36,25,37,29,32,23
29.48,26,36,41,24,40
29.60,34,40,35,22,33
29.72,30,24,32,31,33
29.84,23,36,23,26,28
29.96,26,25,29,28,20
30.00,24,30,26,28,23