Folder: MSE2001python/module_examples/data_for_exercises

File: XRD_Rietveld.csv
x,y_obs,weight,y_calc,y_bkg,phase 1,phase 2
16,1163,0.00086,1154.562,1154.542,22.08458,42.58835
16.34,1097,0.00091,1154.186,1154.163,,
16.68,1116,0.0009,1153.815,1153.789,,
17.02,1114,0.0009,1153.452,1153.423,,
17.36,1099,0.00091,1153.102,1153.068,,
17.7,1148,0.00087,1152.771,1152.732,,
18.04,1058,0.00095,1152.474,1152.429,,
18.38,1077,0.00093,1152.243,1152.188,,
18.72,1063,0.00094,1152.155,1152.089,,
19.06,1161,0.00086,1152.456,1152.374,,
19.4,1110,0.0009,1154.298,1154.195,,
19.74,1133,0.00088,1171.778,1171.642,,
20.08,1238,0.00081,1240.566,1240.38,,
20.42,1174,0.00085,1155.62,1155.352,,
20.76,1143,0.00087,1151.334,1150.913,,
21.1,1193,0.00084,1150.28,1149.526,,
21.44,1119,0.00089,1150.466,1148.746,,
21.78,1211,0.00083,1155.266,1148.164,,
22.12,2380,0.00042,2061.043,1147.665,,
22.46,1166,0.00086,1152.903,1147.207,,
22.8,1152,0.00087,1148.308,1146.772,,
23.14,1136,0.00088,1147.05,1146.351,,
23.48,1159,0.00086,1146.336,1145.939,,
23.82,1116,0.0009,1145.788,1145.532,,
24.16,1189,0.00084,1145.308,1145.129,,
24.5,1190,0.00084,1144.861,1144.729,,
24.84,1159,0.00086,1144.433,1144.332,,
25.18,1159,0.00086,1144.125,1144.046,,
25.52,1177,0.00085,1143.726,1143.661,,
25.86,1165,0.00086,1143.333,1143.28,,
26.2,1158,0.00086,1142.946,1142.901,,
26.54,1146,0.00087,1142.596,1142.524,,
26.88,1097,0.00091,1142.221,1142.152,,
27.22,1130,0.00088,1141.827,1141.76,,
27.56,1167,0.00086,1141.465,1141.398,,
27.9,1129,0.00089,1141.109,1141.042,,
28.24,1117,0.0009,1141.022,1140.954,,
28.58,1156,0.00087,1140.703,1140.632,,
28.92,1197,0.00084,1140.4,1140.326,,
29.26,1134,0.00088,1140.118,1140.04,,
29.6,1161,0.00086,1139.865,1139.782,,
29.94,1128,0.00089,1139.655,1139.565,,
30.28,1204,0.00083,1139.508,1139.411,,
30.62,1157,0.00086,1139.463,1139.356,,
30.96,1174,0.00085,1139.592,1139.475,,
31.3,1096,0.00091,1140.053,1139.921,,
31.64,1170,0.00085,1141.276,1141.079,,
31.98,1167,0.00086,1144.455,1144.128,,
32.32,1103,0.00091,1154.67,1154.305,,
32.66,1213,0.00082,1224.841,1224.431,,
33,1702,0.00059,1705.633,1705.164,,
33.34,1215,0.00082,1172.76,1172.216,,
33.68,1158,0.00086,1147.342,1146.689,,
34.02,1154,0.00087,1141.324,1140.535,,
34.36,1147,0.00087,1139.081,1138.085,,
34.7,1114,0.0009,1138.179,1136.853,,
35.04,1135,0.00088,1138.13,1136.232,,
35.38,1098,0.00091,1139.053,1135.998,,
35.72,1177,0.00085,1142.005,1135.967,,
36.06,1177,0.00085,1154.879,1136.249,,
36.4,2864,0.00035,2701.243,1136.959,,
36.74,1273,0.00079,1209.74,1138.353,,
37.08,1159,0.00086,1150.888,1141.24,,
37.42,1083,0.00092,1150.901,1146.486,,
37.76,1150,0.00087,1161.107,1158.306,,
38.1,1139,0.00088,1196.372,1194.213,,
38.44,2713,0.00037,2405.261,2403.364,,
38.78,3660,0.00027,3668.08,3666.248,,
39.12,1329,0.00075,1413.765,1411.868,,
39.46,1187,0.00084,1199.737,1197.641,,
39.8,1211,0.00083,1160.792,1158.39,,
40.14,1185,0.00084,1147.598,1144.724,,
40.48,1151,0.00087,1141.941,1138.345,,
40.82,1194,0.00084,1139.561,1134.827,,
41.16,1192,0.00084,1139.333,1132.681,,
41.5,1135,0.00088,1141.562,1131.308,,
41.84,1222,0.00082,1148.865,1130.449,,
42.18,1242,0.00081,1175.841,1130.011,,
42.52,2726,0.00037,3133.024,1130.021,,
42.86,2750,0.00036,2346.172,1130.655,,
43.2,3823,0.00026,3983.21,1132.401,,
43.54,1221,0.00082,1200.441,1136.617,,
43.88,1145,0.00087,1172.501,1148.42,,
44.22,1213,0.00082,1211.783,1198.103,,
44.56,2098,0.00048,2117.346,2106.044,,
44.9,1456,0.00069,1466.329,1348.758,,
45.24,1328,0.00075,1327.731,1165.873,,
45.58,1149,0.00087,1148.483,1141.229,,
45.92,1108,0.0009,1138.912,1134.568,,
46.26,1171,0.00085,1137.678,1134.253,,
46.6,1145,0.00087,1145.27,1142.2,,
46.94,1162,0.00086,1196.646,1193.631,,
47.28,1683,0.00059,1680.916,1677.702,,
47.62,1212,0.00083,1179.436,1175.707,,
47.96,1085,0.00092,1140.449,1135.695,,
48.3,1143,0.00087,1133.331,1126.521,,
48.64,1135,0.00088,1134.284,1122.81,,
48.98,1185,0.00084,1146.165,1120.792,,
49.32,1575,0.00063,1300.612,1119.472,,
49.66,4746,0.00021,5132.199,1118.494,,
50,1281,0.00078,1202.827,1117.706,,
50.34,1162,0.00086,1137.978,1117.034,,
50.68,1095,0.00091,1126.99,1116.497,,
51.02,1147,0.00087,1122.964,1115.952,,
51.36,1087,0.00092,1121.491,1115.443,,
51.7,1072,0.00093,1122.177,1114.96,,
52.04,1097,0.00091,1129.1,1114.514,,
52.38,1609,0.00062,1623.085,1114.069,,
52.72,1577,0.00063,1560.96,1113.635,,
53.06,1139,0.00088,1126.522,1113.213,,
53.4,1120,0.00089,1118.201,1112.799,,
53.74,1163,0.00086,1115.504,1112.393,,
54.08,1095,0.00091,1114.108,1111.994,,
54.42,1123,0.00089,1113.257,1111.677,,
54.76,1157,0.00086,1112.46,1111.18,,
55.1,1153,0.00087,1111.875,1110.809,,
55.44,1076,0.00093,1111.457,1110.537,,
55.78,1128,0.00089,1111.005,1110.19,,
56.12,1073,0.00093,1110.597,1109.855,,
56.46,1131,0.00088,1110.131,1109.433,,
56.8,1098,0.00091,1109.848,1109.146,,
57.14,1148,0.00087,1109.756,1108.902,,
57.48,1113,0.0009,1119.237,1108.74,,
57.82,1091,0.00092,1125.932,1108.778,,
58.16,1101,0.00091,1110.389,1109.489,,
58.5,1111,0.0009,1115.338,1114.739,,
58.84,1277,0.00078,1287.358,1286.841,,
59.18,1122,0.00089,1113.544,1113.064,,
59.52,1076,0.00093,1108.836,1108.396,,
59.86,1086,0.00092,1107.784,1107.385,,
60.2,1047,0.00096,1107.432,1107.05,,
60.54,1071,0.00093,1107.43,1107.045,,
60.88,1028,0.00097,1107.779,1107.385,,
61.22,1060,0.00094,1108.696,1108.289,,
61.56,1091,0.00092,1110.806,1110.381,,
61.9,1112,0.0009,1116.143,1115.693,,
62.24,1112,0.0009,1134.347,1133.864,,
62.58,1265,0.00079,1272.252,1271.727,,
62.92,1448,0.00069,1378.597,1378.01,,
63.26,1128,0.00089,1142.908,1142.236,,
63.6,1090,0.00092,1119.747,1118.947,,
63.94,1061,0.00094,1115.796,1114.794,,
64.28,1089,0.00092,1120.424,1119.068,,
64.62,1088,0.00092,1149.56,1147.476,,
64.96,1663,0.0006,1625.403,1621.349,,
65.3,1234,0.00081,1245.365,1214.499,,
65.64,1514,0.00066,1549.625,1124.196,,
65.98,1186,0.00084,1164.062,1110.365,,
66.32,1138,0.00088,1110.622,1105.917,,
66.66,1117,0.0009,1106.745,1104.132,,
67,1119,0.00089,1105.606,1103.61,,
67.34,1099,0.00091,1105.963,1104.124,,
67.68,1060,0.00094,1108.022,1106.106,,
68.02,1122,0.00089,1113.402,1111.211,,
68.36,1087,0.00092,1128.472,1125.773,,
68.7,1136,0.00088,1191.77,1188.11,,
69.04,1798,0.00056,1770.553,1764.952,,
69.38,1278,0.00078,1263.37,1253.046,,
69.72,1210,0.00083,1169.925,1134.172,,
70.06,2087,0.00048,2087.699,1111.426,,
70.4,1856,0.00054,1739.224,1103.387,,
70.74,1200,0.00083,1127.128,1099.514,,
71.08,1115,0.0009,1108.518,1097.254,,
71.42,1096,0.00091,1104.681,1095.747,,
71.76,1082,0.00092,1105.196,1094.638,,
72.1,1001,0.001,1112.396,1093.76,,
72.44,1210,0.00083,1268.053,1093.025,,
72.78,3001,0.00033,2699.457,1092.384,,
73.12,1382,0.00072,1422.899,1091.808,,
73.46,1133,0.00088,1112.273,1091.276,,
73.8,1079,0.00093,1100.439,1090.777,,
74.14,1129,0.00089,1096.331,1090.303,,
74.48,1088,0.00092,1094.326,1089.848,,
74.82,1106,0.0009,1093.215,1089.408,,
75.16,1059,0.00094,1092.628,1088.979,,
75.5,1061,0.00094,1092.487,1088.56,,
75.84,1121,0.00089,1092.915,1088.148,,
76.18,1032,0.00097,1094.369,1087.742,,
76.52,1059,0.00094,1098.306,1087.342,,
76.86,1124,0.00089,1111.68,1086.946,,
77.2,1382,0.00072,1510.816,1086.553,,
77.54,2677,0.00037,2688.583,1086.164,,
77.88,1419,0.0007,1346.029,1085.778,,
78.22,1295,0.00077,1105.975,1085.394,,
78.56,1091,0.00092,1094.495,1085.012,,
78.9,1109,0.0009,1090.239,1084.632,,
79.24,1108,0.0009,1088.024,1084.254,,
79.58,1061,0.00094,1086.639,1083.877,,
79.92,1055,0.00095,1085.624,1083.464,,
80.26,1083,0.00092,1084.88,1083.091,,
80.6,1041,0.00096,1084.302,1082.719,,
80.94,1031,0.00097,1083.911,1082.348,,
81.28,1064,0.00094,1084.835,1081.978,,
81.62,1089,0.00092,1111.568,1081.583,,
81.96,1162,0.00086,1108.636,1081.215,,
82.3,1332,0.00075,1083.861,1080.848,,
82.64,1186,0.00084,1081.612,1080.481,,
82.98,1084,0.00092,1081.066,1080.115,,
83.32,1086,0.00092,1080.626,1079.749,,
83.66,1015,0.00099,1080.184,1079.384,,
84,1052,0.00095,1079.808,1079.019,,
84.34,1076,0.00093,1079.461,1078.654,,
84.68,1072,0.00093,1079.141,1078.29,,
85.02,1082,0.00092,1078.85,1077.926,,
85.36,1074,0.00093,1078.6,1077.563,,
85.7,1078,0.00093,1078.409,1077.2,,
86.04,984,0.00102,1078.312,1076.837,,
86.38,1082,0.00092,1078.381,1076.474,,
86.72,1095,0.00091,1078.774,1076.112,,
87.06,1088,0.00092,1079.91,1075.75,,
87.4,1077,0.00093,1083.384,1075.389,,
87.74,1130,0.00088,1140.897,1075.027,,
88.08,1591,0.00063,1561.651,1074.666,,
88.42,1478,0.00068,1408.018,1074.305,,
88.76,1247,0.0008,1219.932,1073.944,,
89.1,1125,0.00089,1137.474,1073.584,,
89.44,1038,0.00096,1081.841,1073.224,,
89.78,1077,0.00093,1076.552,1072.864,,
90.12,1089,0.00092,1075.241,1072.504,,
90.46,1066,0.00094,1074.519,1072.144,,
90.8,1068,0.00094,1074.125,1071.785,,
91.14,1061,0.00094,1074.014,1071.426,,
91.48,1069,0.00094,1074.281,1071.067,,
91.82,1042,0.00096,1075.218,1070.677,,
92.16,1098,0.00091,1077.972,1070.319,,
92.5,1129,0.00089,1102,1069.962,,
92.84,1267,0.00079,1385.129,1069.605,,
93.18,1701,0.00059,1697.622,1069.248,,
93.52,1426,0.0007,1317.524,1068.891,,
93.86,1107,0.0009,1102.082,1068.534,,
94.2,1132,0.00088,1144.074,1068.177,,
94.54,1189,0.00084,1171.215,1067.821,,
94.88,1140,0.00088,1096.015,1067.465,,
95.22,1063,0.00094,1071.366,1067.109,,
95.56,1033,0.00097,1069.026,1066.753,,
95.9,1028,0.00097,1068.001,1066.397,,
96.24,1069,0.00094,1067.259,1066.041,,
96.58,1063,0.00094,1066.645,1065.686,,
96.92,1092,0.00092,1066.117,1065.331,,
97.26,1075,0.00093,1065.635,1064.975,,
97.6,1101,0.00091,1065.185,1064.621,,
97.94,1059,0.00094,1064.756,1064.266,,
98.28,1119,0.00089,1064.342,1063.911,,
98.62,1075,0.00093,1063.939,1063.557,,
98.96,1120,0.00089,1063.545,1063.202,,
99.3,1117,0.0009,1063.157,1062.848,,
99.64,1019,0.00098,1062.775,1062.494,,
99.963,1193,0.00084,1062.415,1062.158,,